Folder: EC-MS-for-LIBs/EC-MS Data/Graphite vs Li in EC-Free + CO2/Raw EC

File: EC098_EC_Free_CO2_01_OCV_C01.mpt
EC-Lab ASCII FILE
Nb header lines : 46

Open Circuit Voltage

Run on channel : 1 (SN 39219)
User :
CE vs. WE compliance from -10 V to 10 V
Electrode connection : standard
Ewe ctrl range : min = 0.00 V, max = 5.00 V
Safety Limits :
	Do not start on E overload
Acquisition started on : 10/18/2022 11:10:26.788
Technique started on : 10/18/2022 11:10:26.788
Loaded Setting File :  D:\EC-Lab\Faraday\Graphite vs Li\EC096\EC096 LP57 + CO2.mps
Saved on :
	File : EC098_EC_Free_CO2_01_OCV_C01.mpr
	Directory : D:\EC-Lab\Faraday\Graphite vs Li\EC098\
	Host : 192.109.209.130
Device : SP-150 (SN 1485)
Address : 192.109.209.135
EC-Lab for windows v11.36 (software)
Internet server v11.36 (firmware)
Command interpretor v11.36 (firmware)
Electrode material : Au/Pd
Initial state :
Electrolyte : NaCl (0.2M)
Comments : Fe(CN)63-/Fe(CN)64- 5.10-3 M
Reference electrode : SCE Saturated Calomel Electrode (0.241 V)
Electrode surface area : 0.001 cm²
Characteristic mass : 0.001 g
Equivalent Weight : 0.000 g/eq.
Density : 0.000 g/cm3
Text export
   Mode : Standard
   Time format : Elapsed
Cycle Definition : Charge/Discharge alternance
tR (h:m:s)          1:00:0.0000
dER/dt (mV/h)       0.0
record              Ewe
dER (mV)            0.00
dtR (s)             10.0000
E range min (V)     0.000
E range max (V)     5.000

mode	error	time/s	Ewe/V
3	0	0.000000000000000E+000	2.73525
3	0	10	2.73517
3	0	20	2.73517
3	0	30	2.73507
3	0	40	2.73509
3	0	50	2.73496
3	0	60	2.73496
3	0	70	2.73498
3	0	80	2.73484
3	0	90	2.73494
3	0	100	2.735
3	0	110	2.735
3	0	120	2.73494
3	0	130	2.73509
3	0	140	2.73513
3	0	150	2.7354
3	0	160	2.73551
3	0	170	2.73559
3	0	180	2.73567
3	0	190	2.73597
3	0	200	2.73603
3	0	210	2.73626
3	0	220	2.73628
3	0	230	2.73649
3	0	240	2.73658
3	0	250	2.73685
3	0	260	2.7371
3	0	270	2.73727
3	0	280	2.73731
3	0	290	2.73773
3	0	300	2.73792
3	0	310	2.73801
3	0	320	2.73826
3	0	330	2.73859
3	0	340	2.73866
3	0	350	2.73887
3	0	360	2.73905
3	0	370	2.73933
3	0	380	2.73947
3	0	390	2.7396
3	0	400	2.73985
3	0	410	2.73994
3	0	420	2.74019
3	0	430	2.74027
3	0	440	2.74052
3	0	450	2.74063
3	0	460	2.74084
3	0	470	2.74086
3	0	480	2.74101
3	0	490	2.74122
3	0	500	2.74141
3	0	510	2.74147
3	0	520	2.74162
3	0	530	2.74178
3	0	540	2.74187
3	0	550	2.74195
3	0	560	2.7422
3	0	570	2.74218
3	0	580	2.74244
3	0	590	2.74237
3	0	600	2.74252
3	0	610	2.74277
3	0	620	2.74271
3	0	630	2.74296
3	0	640	2.74311
3	0	650	2.74307
3	0	660	2.7433
3	0	670	2.74355
3	0	680	2.74361
3	0	690	2.7437
3	0	700	2.7438
3	0	710	2.74414
3	0	720	2.74433
3	0	730	2.74433
3	0	740	2.74449
3	0	750	2.74475
3	0	760	2.74472
3	0	770	2.74496
3	0	780	2.74495
3	0	790	2.7451
3	0	800	2.74519
3	0	810	2.74525
3	0	820	2.74531
3	0	830	2.74548
3	0	840	2.74552
3	0	850	2.74577
3	0	860	2.74571
3	0	870	2.74575
3	0	880	2.74586
3	0	890	2.74592
3	0	900	2.74617
3	0	910	2.74626
3	0	920	2.74638
3	0	930	2.74636
3	0	940	2.74638
3	0	950	2.74653
3	0	960	2.74651
3	0	970	2.74661
3	0	980	2.74659
3	0	990	2.74666
3	0	1000	2.74691
3	0	1010	2.74701
3	0	1020	2.74697
3	0	1030	2.74712
3	0	1040	2.74708
3	0	1050	2.74722
3	0	1060	2.74727
3	0	1070	2.74758
3	0	1080	2.74764
3	0	1090	2.74802
3	0	1100	2.74813
3	0	1110	2.74821
3	0	1120	2.74821
3	0	1130	2.7484
3	0	1140	2.74886
3	0	1150	2.74894
3	0	1160	2.74913
3	0	1170	2.74932
3	0	1180	2.74932
3	0	1190	2.74951
3	0	1200	2.74957
3	0	1210	2.7496
3	0	1220	2.74978
3	0	1230	2.74985
3	0	1240	2.75006
3	0	1250	2.75033
3	0	1260	2.75058
3	0	1270	2.75088
3	0	1280	2.75096
3	0	1290	2.75119
3	0	1300	2.75148
3	0	1310	2.75157
3	0	1320	2.75174
3	0	1330	2.75191
3	0	1340	2.75205
3	0	1350	2.75224
3	0	1360	2.75241
3	0	1370	2.75256
3	0	1380	2.75277
3	0	1390	2.75295
3	0	1400	2.7531
3	0	1410	2.75344
3	0	1420	2.7534
3	0	1430	2.75369
3	0	1440	2.75394
3	0	1450	2.75398
3	0	1460	2.75419
3	0	1470	2.75447
3	0	1480	2.75463
3	0	1490	2.75491
3	0	1500	2.75505
3	0	1510	2.75545
3	0	1520	2.75568
3	0	1530	2.756
3	0	1540	2.75632
3	0	1550	2.75661
3	0	1560	2.75694
3	0	1570	2.7573
3	0	1580	2.75751
3	0	1590	2.75759
3	0	1600	2.75797
3	0	1610	2.75818
3	0	1620	2.7581
3	0	1630	2.75843
3	0	1640	2.75841
3	0	1650	2.75854
3	0	1660	2.75852
3	0	1670	2.75869
3	0	1680	2.75881
3	0	1690	2.75896
3	0	1700	2.75919
3	0	1710	2.75904
3	0	1720	2.7585
3	0	1730	2.75785
3	0	1740	2.7572
3	0	1750	2.7569
3	0	1760	2.75648
3	0	1770	2.75617
3	0	1780	2.75575
3	0	1790	2.75522
3	0	1800	2.75449
3	0	1810	2.75373
3	0	1820	2.7526
3	0	1830	2.75174
3	0	1840	2.75079
3	0	1850	2.74978
3	0	1860	2.74895
3	0	1870	2.74781
3	0	1880	2.74684
3	0	1890	2.74594
3	0	1900	2.74496
3	0	1910	2.74397
3	0	1920	2.74273
3	0	1930	2.7421
3	0	1940	2.74113
3	0	1950	2.74015
3	0	1960	2.73924
3	0	1970	2.73849
3	0	1980	2.73777
3	0	1990	2.73704
3	0	2000	2.73618
3	0	2010	2.73546
3	0	2020	2.73471
3	0	2030	2.73395
3	0	2040	2.73341
3	0	2050	2.73244
3	0	2060	2.73211
3	0	2070	2.73124
3	0	2080	2.73047
3	0	2090	2.72986
3	0	2100	2.72929
3	0	2110	2.7287
3	0	2120	2.72814
3	0	2130	2.72744
3	0	2140	2.72707
3	0	2150	2.72654
3	0	2160	2.72599
3	0	2170	2.72555
3	0	2180	2.72495
3	0	2190	2.72455
3	0	2200	2.72425
3	0	2210	2.72362
3	0	2220	2.72318
3	0	2230	2.72289
3	0	2240	2.72241
3	0	2250	2.72201
3	0	2260	2.72154
3	0	2270	2.72125
3	0	2280	2.72085
3	0	2290	2.72056
3	0	2300	2.71999
3	0	2310	2.71957
3	0	2320	2.7193
3	0	2330	2.71888
3	0	2340	2.71862
3	0	2350	2.71831
3	0	2360	2.71808
3	0	2370	2.71774
3	0	2380	2.71741
3	0	2390	2.71714
3	0	2400	2.71697

File: EC098_EC_Free_CO2_02_CV_C01.mpt
EC-Lab ASCII FILE
Nb header lines : 64

Cyclic Voltammetry

Run on channel : 1 (SN 39219)
User :
CE vs. WE compliance from -10 V to 10 V
Electrode connection : standard
Ewe ctrl range : min = 0.00 V, max = 5.00 V
Safety Limits :
	Do not start on E overload
Acquisition started on : 10/18/2022 11:10:26.788
Technique started on : 10/18/2022 11:50:26.939
Loaded Setting File :  D:\EC-Lab\Faraday\Graphite vs Li\EC096\EC096 LP57 + CO2.mps
Saved on :
	File : EC098_EC_Free_CO2_02_CV_C01.mpr
	Directory : D:\EC-Lab\Faraday\Graphite vs Li\EC098\
	Host : 192.109.209.130
Device : SP-150 (SN 1485)
Address : 192.109.209.135
EC-Lab for windows v11.36 (software)
Internet server v11.36 (firmware)
Command interpretor v11.36 (firmware)
Electrode material : Au/Pd
Initial state :
Electrolyte : NaCl (0.2M)
Comments : Fe(CN)63-/Fe(CN)64- 5.10-3 M
Reference electrode : SCE Saturated Calomel Electrode (0.241 V)
Electrode surface area : 0.001 cm²
Characteristic mass : 0.001 g
Equivalent Weight : 0.000 g/eq.
Density : 0.000 g/cm3
Text export
   Mode : Standard
   Time format : Elapsed
Cycle Definition : Charge/Discharge alternance
Ei (V)              0.000
vs.                 Eoc
dE/dt               1.000
dE/dt unit          mV/s
E1 (V)              0.010
vs.                 Ref
Step percent        50
N                   10
E range min (V)     0.000
E range max (V)     5.000
I Range             Auto
I Range min         Unset
I Range max         Unset
I Range init        Unset
Bandwidth           4
E2 (V)              1.500
vs.                 Ref
nc cycles           3
Reverse Scan        1
Ef (V)              0.000
vs.                 Eoc

Modify on : 10/18/2022 11:10
No text export
nc cycles           2

mode	ox/red	error	control changes	counter inc.	time/s	control/V	Ewe/V	<I>/mA	cycle number	(Q-Qo)/C	I Range	P/W
2	1	0	0	0	2400.15	2.71673	2.71621	0.000331424	1	0.0000000E+000	14	9.00216e-07
2	1	0	1	0	2484.72	2.63216	2.6316	0.000242782	1	2.51366e-05	14	6.38904e-07
2	1	0	1	0	2569.74	2.54714	2.54657	0.000132491	1	3.9528e-05	14	3.37397e-07
2	1	0	1	0	2654.76	2.46211	2.46161	2.66659e-05	1	4.48493e-05	14	6.56411e-08
2	0	0	1	0	2739.78	2.37709	2.37662	-8.13069e-05	1	4.11359e-05	14	-1.93236e-07
2	0	0	1	0	2824.81	2.29207	2.2915	-0.000204213	1	2.76138e-05	14	-4.67955e-07
2	0	0	1	0	2909.83	2.20705	2.20649	-0.000341497	1	3.09859e-06	14	-7.53508e-07
2	0	0	1	0	2994.85	2.12203	2.12149	-0.000499384	1	-3.38414e-05	14	-1.05944e-06
2	0	0	1	0	3079.87	2.03701	2.03648	-0.00069209	1	-8.5857e-05	14	-1.40943e-06
2	0	0	0	0	3164.89	1.95199	1.95148	-0.000788311	1	-0.000150868	14	-1.53838e-06
2	0	0	1	0	3249.91	1.86697	1.8664	-0.000853484	1	-0.000222294	14	-1.59294e-06
2	0	0	1	0	3334.93	1.78195	1.78144	-0.00090718	1	-0.000298403	14	-1.61609e-06
2	0	0	1	0	3419.95	1.69692	1.69643	-0.000984302	1	-0.000380141	14	-1.6698e-06
2	0	0	1	0	3504.97	1.6119	1.61139	-0.00107503	1	-0.000468903	14	-1.73229e-06
2	0	0	1	0	3590	1.52688	1.52639	-0.00120801	1	-0.000567016	14	-1.8439e-06
2	0	0	1	0	3675.02	1.44186	1.44139	-0.00141129	1	-0.000679266	14	-2.03422e-06
2	0	0	1	0	3760.04	1.35684	1.35631	-0.00172293	1	-0.00081263	14	-2.33683e-06
2	0	0	0	0	3845.06	1.27182	1.27133	-0.00238783	1	-0.000985511	14	-3.03571e-06
2	0	0	1	0	3930.08	1.1868	1.1863	-0.00414659	1	-0.00125256	14	-4.9191e-06
2	0	0	1	0	4015.1	1.10178	1.10128	-0.00718122	1	-0.00173374	14	-7.90855e-06
2	0	0	1	0	4100.12	1.01676	1.01625	-0.00937076	1	-0.00244978	14	-9.52302e-06
2	0	0	1	0	4185.14	0.931735	0.931274	-0.0102698	1	-0.00329272	14	-9.564e-06
2	0	0	1	0	4270.16	0.846714	0.846243	-0.0109	1	-0.00419058	14	-9.22404e-06
2	0	0	1	0	4355.18	0.761693	0.761204	-0.0124958	1	-0.00517847	13	-9.51189e-06
2	0	0	1	0	4440.21	0.676672	0.67621	-0.0155347	1	-0.00635647	13	-1.05047e-05
2	0	0	1	0	4525.23	0.591651	0.59116	-0.0207574	1	-0.00788839	13	-1.2271e-05
2	0	0	1	0	4610.25	0.50663	0.506253	-0.0266317	1	-0.00991167	13	-1.34824e-05
2	0	0	1	0	4695.27	0.421609	0.421174	-0.0298393	1	-0.0123348	13	-1.25675e-05
2	0	0	1	0	4780.29	0.336588	0.336152	-0.0325488	1	-0.0149766	13	-1.09413e-05
2	0	0	1	0	4865.31	0.251567	0.251174	-0.0382203	1	-0.0179632	13	-9.59995e-06
2	0	0	1	0	4950.33	0.166545	0.166142	-0.0475975	1	-0.0215858	13	-7.90794e-06
2	0	0	1	0	5035.35	0.0815244	0.0811337	-0.0824462	1	-0.0266464	13	-6.68916e-06
2	0	0	1	0	5119.47	0.0225098	0.0221192	-0.116203	1	-0.0361176	12	-2.57033e-06
2	0	0	1	0	5204.5	0.107531	0.107126	-0.0219571	1	-0.0414285	13	-2.35217e-06
2	1	0	1	0	5289.52	0.192552	0.192148	0.027427	1	-0.0410604	13	5.27003e-06
2	1	0	1	0	5374.54	0.277573	0.277162	0.0770611	1	-0.0368332	13	2.13584e-05
2	1	0	1	0	5459.56	0.362594	0.362213	0.152957	1	-0.0234304	12	5.5403e-05
2	1	0	1	0	5544.58	0.447615	0.44718	0.0233695	1	-0.0188144	13	1.04504e-05
2	1	0	1	0	5629.6	0.532636	0.532209	0.0166391	1	-0.0171416	13	8.85546e-06
2	1	0	1	0	5714.62	0.617657	0.617215	0.0127082	1	-0.015901	13	7.8437e-06
2	1	0	1	0	5799.64	0.702678	0.702207	0.0100439	1	-0.0149325	13	7.05288e-06
2	1	0	1	0	5884.66	0.787699	0.787213	0.00833148	1	-0.0141557	13	6.55865e-06
2	1	0	1	0	5969.69	0.872721	0.872277	0.00749799	1	-0.0134749	13	6.54032e-06
2	1	0	1	0	6054.71	0.957742	0.957254	0.00676456	1	-0.0128641	13	6.4754e-06
2	1	0	1	0	6139.73	1.04276	1.04224	0.00593285	1	-0.0123164	13	6.18348e-06
2	1	0	1	0	6224.75	1.12778	1.12729	0.00486393	1	-0.0118519	13	5.48304e-06
2	1	0	1	0	6309.77	1.2128	1.21227	0.00364381	1	-0.0114841	14	4.41727e-06
2	1	0	1	0	6394.79	1.29783	1.29735	0.00233212	1	-0.0112262	14	3.02559e-06
2	1	0	1	0	6479.81	1.38285	1.38236	0.00137189	1	-0.0110688	14	1.89644e-06
2	1	0	1	0	6564.83	1.46787	1.46736	0.000929439	1	-0.0109703	14	1.36382e-06
2	1	0	0	1	6648.55	1.44846	1.44793	0.000210705	2	-0.0109197	14	3.05086e-07
2	0	0	1	1	6733.58	1.36344	1.36296	-0.000308711	2	-0.0109259	14	-4.20762e-07
2	0	0	1	1	6818.6	1.27842	1.27792	-0.00175004	2	-0.0110056	14	-2.23641e-06
2	0	0	1	1	6903.62	1.1934	1.19287	-0.00408766	2	-0.0112601	14	-4.87605e-06
2	0	0	1	1	6988.64	1.10838	1.10788	-0.00539135	2	-0.0116743	14	-5.97294e-06
2	0	0	1	1	7073.66	1.02336	1.02287	-0.00640923	2	-0.0121795	14	-6.55583e-06
2	0	0	1	1	7158.68	0.938337	0.937841	-0.00732422	2	-0.0127704	14	-6.86895e-06
2	0	0	1	1	7243.7	0.853316	0.85283	-0.00808243	2	-0.0134307	14	-6.89294e-06
2	0	0	1	1	7328.72	0.768295	0.767793	-0.00908384	2	-0.0141678	14	-6.97451e-06
2	0	0	1	1	7413.74	0.683274	0.68282	-0.0107133	2	-0.0150043	14	-7.31523e-06
2	0	0	0	1	7498.77	0.598253	0.597817	-0.0134278	2	-0.0160348	13	-8.02737e-06
2	0	0	1	1	7583.79	0.513231	0.512748	-0.0170535	2	-0.0173273	13	-8.74417e-06
2	0	0	1	1	7668.81	0.42821	0.427842	-0.0219912	2	-0.0189855	13	-9.40874e-06
2	0	0	1	1	7753.83	0.343189	0.342765	-0.0284664	2	-0.0211283	13	-9.75731e-06
2	0	0	1	1	7838.85	0.258168	0.257744	-0.0347406	2	-0.0238329	13	-8.95418e-06
2	0	0	1	1	7923.87	0.173147	0.172747	-0.0365299	2	-0.0268341	13	-6.31044e-06
2	0	0	1	1	8008.89	0.088126	0.0877295	-0.0826654	2	-0.0315955	13	-7.25219e-06
2	0	0	1	1	8092.61	0.0155082	0.0150992	-0.110606	2	-0.0403112	12	-1.67006e-06
2	0	0	1	1	8177.73	0.100629	0.100259	-0.0223825	2	-0.045434	13	-2.24405e-06
2	1	0	1	1	8262.76	0.18565	0.185242	0.0258018	2	-0.0451543	13	4.77958e-06
2	1	0	1	1	8347.78	0.270671	0.270272	0.0777568	2	-0.0409617	13	2.10155e-05
2	1	0	1	1	8432.8	0.355692	0.355237	0.182181	2	-0.030173	12	6.47175e-05
2	1	0	1	1	8517.82	0.440714	0.440254	0.0305305	2	-0.0213785	13	1.34412e-05
[...]
2	0	0	1	0	9706.71	1.37044	1.36992	-0.000213026	3	-0.0131075	14	-2.91828e-07
2	0	0	1	0	9791.74	1.28542	1.28501	-0.00155954	3	-0.0131749	14	-2.00402e-06
2	0	0	1	0	9876.76	1.2004	1.19983	-0.00385894	3	-0.0134101	14	-4.63008e-06
2	0	0	1	0	9961.78	1.11538	1.11482	-0.0051732	3	-0.0138043	14	-5.76721e-06
2	0	0	1	0	10046.8	1.03036	1.02988	-0.00614341	3	-0.0142876	14	-6.32698e-06
2	0	0	1	0	10131.8	0.945339	0.944842	-0.00706742	3	-0.0148551	14	-6.67759e-06
2	0	0	1	0	10216.8	0.860317	0.859788	-0.00780742	3	-0.0154909	14	-6.71273e-06
2	0	0	1	0	10301.9	0.775296	0.774838	-0.00873164	3	-0.0161998	14	-6.76561e-06
2	0	0	1	0	10386.9	0.690275	0.689752	-0.0102221	3	-0.0169999	14	-7.05069e-06
2	0	0	1	0	10471.9	0.605254	0.604819	-0.0127226	3	-0.0179774	13	-7.69488e-06
2	0	0	1	0	10556.9	0.520233	0.519809	-0.0158195	3	-0.0191902	13	-8.22312e-06
2	0	0	1	0	10641.9	0.435212	0.434745	-0.0199836	3	-0.0207093	13	-8.68779e-06
2	0	0	1	0	10727	0.350191	0.349839	-0.0250079	3	-0.0226144	13	-8.74875e-06
2	0	0	1	0	10812	0.26517	0.26473	-0.0294348	3	-0.0249364	13	-7.79229e-06
2	0	0	1	0	10897	0.180149	0.179693	-0.0378813	3	-0.0277379	13	-6.80702e-06
2	0	0	1	0	10982	0.0951279	0.0947402	-0.0731859	3	-0.0320528	13	-6.93365e-06
2	0	0	1	0	11066.9	0.0103067	0.00996923	-0.116136	3	-0.0402548	12	-1.15779e-06
2	0	0	1	0	11150.8	0.0935275	0.0931289	-0.0282312	3	-0.0457876	13	-2.62914e-06
2	1	0	1	0	11235.9	0.178648	0.178281	0.0200205	3	-0.045994	13	3.56928e-06
2	1	0	1	0	11320.9	0.26367	0.263254	0.0625865	3	-0.0425147	13	1.64761e-05
2	1	0	1	0	11405.9	0.348691	0.348259	0.150034	3	-0.0343276	12	5.22508e-05
2	1	0	1	0	11491	0.433712	0.433302	0.0493357	3	-0.023433	12	2.13773e-05
2	1	0	1	0	11576	0.518733	0.518291	0.0185673	3	-0.0211675	13	9.62326e-06
2	1	0	1	0	11661	0.603754	0.603368	0.0137832	3	-0.019807	13	8.31634e-06
2	1	0	1	0	11746	0.688775	0.68832	0.0107461	3	-0.0187663	13	7.39674e-06
2	1	0	0	0	11831	0.773796	0.77332	0.00865919	3	-0.0179458	13	6.69633e-06
2	1	0	1	0	11916.1	0.858817	0.85835	0.0077454	3	-0.0172465	13	6.64827e-06
2	1	0	1	0	12001.1	0.943838	0.943342	0.00694315	3	-0.0166203	13	6.54977e-06
2	1	0	1	0	12086.1	1.02886	1.02842	0.00617344	3	-0.0160572	13	6.34889e-06
2	1	0	1	0	12171.1	1.11388	1.11337	0.00506334	3	-0.0155758	13	5.63738e-06
2	1	0	0	0	12256.1	1.1989	1.19839	0.00383869	3	-0.0151931	14	4.60023e-06
2	1	0	1	0	12341.2	1.28392	1.28345	0.00251253	3	-0.0149208	14	3.22471e-06
2	1	0	1	0	12426.2	1.36894	1.36848	0.00150054	3	-0.0147512	14	2.05347e-06
2	1	0	1	0	12511.2	1.45396	1.45347	0.00100552	3	-0.014645	14	1.4615e-06
2	1	0	1	1	12594.8	1.53759	1.53711	0.00082485	3	-0.0145671	14	1.26788e-06
2	1	0	1	1	12679.9	1.62261	1.62208	0.000771601	3	-0.0144972	14	1.2516e-06
2	1	0	1	1	12764.9	1.70763	1.70712	0.000768645	3	-0.0144293	14	1.31217e-06
2	1	0	1	1	12849.9	1.79265	1.79215	0.000786201	3	-0.0143607	14	1.40899e-06
2	1	0	1	1	12934.9	1.87767	1.87719	0.000801005	3	-0.0142906	14	1.50364e-06
2	1	0	1	1	13019.9	1.96269	1.96218	0.000808364	3	-0.0142197	14	1.58615e-06
2	1	0	1	1	13105	2.04771	2.04716	0.000819936	3	-0.0141481	14	1.67854e-06
2	1	0	1	1	13190	2.13273	2.13223	0.000856809	3	-0.0140746	14	1.82691e-06
2	1	0	1	1	13275	2.21775	2.2172	0.000921027	3	-0.0139967	14	2.0421e-06
2	1	0	1	1	13360	2.30277	2.30226	0.000986979	3	-0.0139131	14	2.27228e-06
2	1	0	1	1	13445	2.3878	2.3873	0.00103981	3	-0.0138244	14	2.48234e-06
2	1	0	1	1	13530.1	2.47282	2.47234	0.00107525	3	-0.0137322	14	2.65838e-06
2	1	0	1	1	13615.1	2.55784	2.55724	0.00110331	3	-0.0136375	14	2.82143e-06
2	1	0	1	1	13700.1	2.64286	2.64233	0.00113293	3	-0.0135403	14	2.99358e-06
2	1	0	1	1	13774	2.71673	2.71625	0.00115879	3	-0.013454	14	3.14756e-06

File: EC098_EC_Free_CO2_03_OCV_C01.mpt
EC-Lab ASCII FILE
Nb header lines : 46

Open Circuit Voltage

Run on channel : 1 (SN 39219)
User :
CE vs. WE compliance from -10 V to 10 V
Electrode connection : standard
Ewe ctrl range : min = 0.00 V, max = 5.00 V
Safety Limits :
	Do not start on E overload
Acquisition started on : 10/18/2022 11:10:26.788
Technique started on : 10/18/2022 15:00:00.797
Loaded Setting File :  D:\EC-Lab\Faraday\Graphite vs Li\EC096\EC096 LP57 + CO2.mps
Saved on :
	File : EC098_EC_Free_CO2_03_OCV_C01.mpr
	Directory : D:\EC-Lab\Faraday\Graphite vs Li\EC098\
	Host : 192.109.209.130
Device : SP-150 (SN 1485)
Address : 192.109.209.135
EC-Lab for windows v11.36 (software)
Internet server v11.36 (firmware)
Command interpretor v11.36 (firmware)
Electrode material : Au/Pd
Initial state :
Electrolyte : NaCl (0.2M)
Comments : Fe(CN)63-/Fe(CN)64- 5.10-3 M
Reference electrode : SCE Saturated Calomel Electrode (0.241 V)
Electrode surface area : 0.001 cm²
Characteristic mass : 0.001 g
Equivalent Weight : 0.000 g/eq.
Density : 0.000 g/cm3
Text export
   Mode : Standard
   Time format : Elapsed
Cycle Definition : Charge/Discharge alternance
tR (h:m:s)          1:00:0.0000
dER/dt (mV/h)       0.0
record              Ewe
dER (mV)            0.00
dtR (s)             10.0000
E range min (V)     0.000
E range max (V)     5.000

mode	error	time/s	Ewe/V
3	0	13774	2.71321
3	0	13784	2.57278
3	0	13794	2.51349
3	0	13804	2.47536
3	0	13814	2.44748
3	0	13824	2.42555
3	0	13834	2.40773
3	0	13844	2.39253
3	0	13854	2.37943
3	0	13864	2.36786
3	0	13874	2.35759
3	0	13884	2.34844
3	0	13894	2.34014
3	0	13904	2.33233
3	0	13914	2.32527
3	0	13924	2.31875
3	0	13934	2.31268
3	0	13944	2.30703
3	0	13954	2.30174
3	0	13964	2.2967
3	0	13974	2.29212
3	0	13984	2.28771
3	0	13994	2.28324
3	0	14004	2.27931
3	0	14014	2.27547
3	0	14024	2.27171
3	0	14034	2.26831
3	0	14044	2.26506
3	0	14054	2.26191
3	0	14064	2.2589
3	0	14074	2.25582
3	0	14084	2.25303
3	0	14094	2.25046
3	0	14104	2.24771
3	0	14114	2.24522
3	0	14124	2.24282
3	0	14134	2.2406
3	0	14144	2.23805
3	0	14154	2.23614
3	0	14164	2.23396
3	0	14174	2.2319
3	0	14184	2.22983
3	0	14194	2.22798
3	0	14204	2.22623
3	0	14214	2.22445
3	0	14224	2.22248
3	0	14234	2.22098
3	0	14244	2.21935
3	0	14254	2.21771
3	0	14264	2.21613
3	0	14274	2.21488
3	0	14284	2.21339
3	0	14294	2.21196
3	0	14304	2.21066
3	0	14314	2.20931
3	0	14324	2.20811
3	0	14334	2.20698
3	0	14344	2.20559
3	0	14354	2.20448
3	0	14364	2.20329
3	0	14374	2.20232
3	0	14384	2.20106
3	0	14394	2.20009
3	0	14404	2.19913
3	0	14404.2	2.19915