Folder: EC-MS-for-LIBs/EC-MS Data/Graphite vs Li in EC-Free/Raw EC

File: EC032_EC_free_G_vs_Li_02_CV_C01.mpt
EC-Lab ASCII FILE
Nb header lines : 59

Cyclic Voltammetry

Run on channel : 1 (SN 39219)
User :
CE vs. WE compliance from -10 V to 10 V
Electrode connection : standard
Ewe ctrl range : min = -10.00 V, max = 10.00 V
Safety Limits :
	Do not start on E overload
Acquisition started on : 05/12/2022 18:29:02.056
Technique started on : 05/12/2022 18:59:02.414
Loaded Setting File :  D:\EC-Lab\Faraday\Graphite vs Li\EC023\EC021_CV_01mvs.mps
Saved on :
	File : EC032_EC_free_G_vs_Li_02_CV_C01.mpr
	Directory : D:\EC-Lab\Faraday\Graphite vs Li\EC032\
	Host : 192.109.209.130
Device : SP-150 (SN 1485)
Address : 192.109.209.135
EC-Lab for windows v11.36 (software)
Internet server v11.36 (firmware)
Command interpretor v11.36 (firmware)
Electrode material :
Initial state :
Electrolyte :
Comments :
Electrode surface area : 0.001 cm²
Characteristic mass : 0.001 g
Equivalent Weight : 0.000 g/eq.
Density : 0.000 g/cm3
Cycle Definition : Charge/Discharge alternance
Ei (V)              0.000
vs.                 Eoc
dE/dt               1.000
dE/dt unit          mV/s
E1 (V)              0.010
vs.                 Ref
Step percent        50
N                   10
E range min (V)     -10.000
E range max (V)     10.000
I Range             Auto
I Range min         Unset
I Range max         Unset
I Range init        Unset
Bandwidth           4
E2 (V)              1.000
vs.                 Ref
nc cycles           9
Reverse Scan        1
Ef (V)              0.000
vs.                 Eoc

Modify on : 05/12/2022 19:37
dE/dt               1.500

mode	ox/red	error	control changes	counter inc.	time/s	control/V	Ewe/V	<I>/mA	cycle number	(Q-Qo)/C	I Range	P/W
2	0	0	0	0	1800.36	1.79631	1.79583	-0.000453253	1	0.0000000E+000	14	-8.13967e-07
2	0	0	1	0	1956.14	1.64053	1.63998	-0.00191437	1	-0.000260691	14	-3.13952e-06
2	0	0	1	0	2113.32	1.48336	1.48283	-0.00315548	1	-0.000670751	14	-4.67905e-06
2	0	0	1	0	2270.49	1.32618	1.32566	-0.0117562	1	-0.00159035	13	-1.55847e-05
2	0	0	1	0	2427.66	1.16901	1.16852	-0.0603027	1	-0.0068739	13	-7.04647e-05
2	0	0	1	0	2584.83	1.01184	1.0113	-0.0963566	1	-0.0196394	13	-9.74456e-05
2	0	0	1	0	2742	0.854668	0.854198	-0.118031	1	-0.0365371	12	-0.000100822
2	0	0	1	0	2899.18	0.697496	0.696969	-0.144794	1	-0.0569408	12	-0.000100917
2	0	0	1	0	3056.35	0.540324	0.539861	-0.202833	1	-0.0835597	12	-0.000109502
2	0	0	1	0	3213.52	0.383152	0.382723	-0.372351	1	-0.126964	12	-0.000142507
2	0	0	1	0	3370.69	0.22598	0.225479	-0.569437	1	-0.202115	12	-0.000128396
2	0	0	1	0	3527.86	0.0688077	0.0683552	-0.722906	1	-0.304008	12	-4.94143e-05
2	0	0	1	0	3680.72	0.104249	0.103808	-0.422841	1	-0.403067	12	-4.38943e-05
2	0	0	1	0	3837.89	0.26142	0.261012	-0.0734276	1	-0.439757	12	-1.91655e-05
2	1	0	1	0	3995.07	0.418593	0.418085	0.148558	1	-0.432767	12	6.21099e-05
2	1	0	1	0	4147.02	0.575765	0.575248	0.326627	1	-0.39755	12	0.000187892
2	1	0	1	0	4251.8	0.732937	0.732416	0.447674	1	-0.35516	12	0.000327884
2	1	0	1	0	4356.58	0.890109	0.889638	0.399987	1	-0.30966	12	0.000355843
2	1	0	1	1	4457.67	0.958216	0.957668	0.120035	2	-0.2772	12	0.000114954
2	0	0	1	1	4562.45	0.801044	0.80059	-0.104523	2	-0.278865	13	-8.36799e-05
2	0	0	1	1	4667.23	0.643872	0.643424	-0.214885	2	-0.295828	12	-0.000138262
2	0	0	1	1	4772.01	0.4867	0.486315	-0.331796	2	-0.324413	12	-0.000161357
2	0	0	1	1	4876.79	0.329528	0.329057	-0.441191	2	-0.365208	12	-0.000145177
2	0	0	1	1	4981.57	0.172356	0.171886	-0.562666	2	-0.417251	12	-9.67142e-05
2	0	0	1	1	5086.35	0.0151843	0.0147686	-0.708285	2	-0.483896	12	-1.04604e-05
2	0	0	1	1	5187.44	0.156639	0.156202	-0.201134	2	-0.527377	12	-3.14176e-05
2	1	0	1	1	5292.22	0.313811	0.313376	0.103618	2	-0.531477	13	3.24713e-05
2	1	0	1	1	5397	0.470983	0.470541	0.345835	2	-0.508067	12	0.000162729
2	1	0	1	1	5501.78	0.628155	0.627667	0.544298	2	-0.458974	12	0.000341638
2	1	0	1	1	5606.56	0.785327	0.784816	0.535443	2	-0.40116	12	0.000420225
2	1	0	1	1	5711.34	0.942499	0.941997	0.425587	2	-0.35025	12	0.000400901
2	1	0	1	0	5812.43	0.905826	0.905343	0.0340124	3	-0.324978	13	3.07929e-05
2	0	0	1	0	5917.21	0.748654	0.748152	-0.135138	3	-0.331562	12	-0.000101104
2	0	0	1	0	6021.99	0.591482	0.59099	-0.246833	3	-0.351709	12	-0.000145876
2	0	0	1	0	6126.77	0.43431	0.433815	-0.332276	3	-0.382522	12	-0.000144146
2	0	0	1	0	6231.55	0.277138	0.276734	-0.457099	3	-0.423105	12	-0.000126495
2	0	0	1	0	6336.34	0.119966	0.119507	-0.599982	3	-0.478604	12	-7.17021e-05
2	0	0	1	0	6437.42	0.0518577	0.0514519	-0.504518	3	-0.542572	12	-2.59584e-05
2	0	0	1	0	6542.2	0.20903	0.208639	-0.0751563	3	-0.570692	12	-1.56805e-05
2	1	0	1	0	6646.98	0.366202	0.365773	0.200618	3	-0.563547	12	7.33806e-05
2	1	0	1	0	6751.76	0.523374	0.522937	0.544577	3	-0.523471	12	0.00028478
2	1	0	1	0	6856.55	0.680546	0.6801	0.594045	3	-0.461812	12	0.00040401
2	1	0	1	0	6961.33	0.837718	0.837263	0.497718	3	-0.403667	12	0.00041672
2	1	0	1	0	7066.11	0.99489	0.994411	0.349481	3	-0.359179	12	0.000347528
2	0	0	1	1	7167.19	0.853435	0.852998	-0.0494218	4	-0.35107	13	-4.21567e-05
2	0	0	1	1	7271.97	0.696263	0.695737	-0.143477	4	-0.361495	12	-9.98222e-05
2	0	0	1	1	7376.75	0.539091	0.538679	-0.240903	4	-0.381529	12	-0.000129769
2	0	0	1	1	7481.54	0.381919	0.381448	-0.350647	4	-0.412463	12	-0.000133753
2	0	0	1	1	7586.32	0.224747	0.224301	-0.466188	4	-0.455318	12	-0.000104566
2	0	0	1	1	7691.1	0.067575	0.0671194	-0.576441	4	-0.510022	12	-3.86904e-05
2	0	0	1	1	7792.18	0.104248	0.103798	-0.30247	4	-0.560591	12	-3.13959e-05
2	0	0	1	1	7896.96	0.26142	0.261017	-0.00464613	4	-0.575337	13	-1.21272e-06
2	1	0	1	1	8001.75	0.418592	0.418147	0.267938	4	-0.563227	12	0.000112037
2	1	0	1	1	8106.53	0.575765	0.575278	0.562589	4	-0.517873	12	0.000323645
2	1	0	1	1	8211.31	0.732937	0.732445	0.562514	4	-0.457128	12	0.000412011
2	1	0	1	1	8316.09	0.890109	0.889626	0.433322	4	-0.404029	12	0.000385495
2	1	0	1	0	8417.17	0.958217	0.957667	0.124946	5	-0.369578	12	0.000119657
2	0	0	1	0	8521.95	0.801044	0.800606	-0.0638364	5	-0.369107	13	-5.11078e-05
2	0	0	1	0	8626.74	0.643872	0.6434	-0.14417	5	-0.380078	12	-9.27587e-05
2	0	0	1	0	8731.52	0.4867	0.486289	-0.22855	5	-0.39954	12	-0.000111141
2	0	0	1	0	8836.3	0.329528	0.329097	-0.321235	5	-0.428315	12	-0.000105718
2	0	0	1	0	8941.08	0.172356	0.172022	-0.420126	5	-0.467113	12	-7.2271e-05
2	0	0	1	0	9045.86	0.0151843	0.014776	-0.554425	5	-0.517778	12	-8.19221e-06
2	0	0	1	0	9146.95	0.156639	0.156251	-0.184657	5	-0.552743	12	-2.88528e-05
2	1	0	1	0	9251.73	0.313811	0.313397	0.0178415	5	-0.560712	13	5.59146e-06
2	1	0	1	0	9356.51	0.470983	0.470519	0.264589	5	-0.547898	12	0.000124494
2	1	0	1	0	9461.29	0.628155	0.627677	0.525602	5	-0.504163	12	0.000329909
2	1	0	1	0	9566.07	0.785327	0.784843	0.511636	5	-0.448105	12	0.000401554
2	1	0	1	0	9670.85	0.942499	0.94198	0.402317	5	-0.400031	12	0.000378974
2	1	0	1	1	9771.94	0.905826	0.905349	0.0360077	6	-0.376401	13	3.25995e-05
2	0	0	1	1	9876.72	0.748654	0.748162	-0.0702346	6	-0.379621	13	-5.25468e-05
2	0	0	1	1	9981.5	0.591482	0.591015	-0.140729	6	-0.39075	12	-8.31731e-05
2	0	0	1	1	10086.3	0.43431	0.433796	-0.213387	6	-0.409262	12	-9.25665e-05
2	0	0	1	1	10191.1	0.277138	0.276714	-0.293821	6	-0.435744	12	-8.13045e-05
2	0	0	1	1	10295.8	0.119966	0.119554	-0.416811	6	-0.472463	12	-4.98314e-05
2	0	0	1	1	10396.9	0.0518578	0.0514244	-0.378913	6	-0.519566	12	-1.94854e-05
2	0	0	1	1	10501.7	0.20903	0.208653	-0.11427	6	-0.543095	12	-2.38427e-05
2	1	0	1	1	10606.5	0.366202	0.365735	0.0331146	6	-0.546876	13	1.21111e-05
2	1	0	1	1	10711.3	0.523374	0.5229	0.29029	6	-0.532156	12	0.000151793
2	1	0	1	1	10816.1	0.680546	0.680122	0.50557	6	-0.486574	12	0.000343849
2	1	0	1	1	10920.8	0.837718	0.837289	0.446322	6	-0.435471	12	0.0003737
2	1	0	1	1	11025.6	0.99489	0.994405	0.351359	6	-0.393192	12	0.000349393
2	0	0	1	0	11126.7	0.853435	0.852951	-0.0138357	7	-0.382185	13	-1.18011e-05
2	0	0	1	0	11231.5	0.696263	0.695836	-0.0794337	7	-0.387217	13	-5.52729e-05
2	0	0	1	0	11336.3	0.539091	0.538631	-0.142266	7	-0.398854	12	-7.6629e-05
2	0	0	1	0	11441	0.381919	0.381473	-0.208974	7	-0.417214	12	-7.97181e-05
2	0	0	1	0	11545.8	0.224747	0.2243	-0.305022	7	-0.443585	12	-6.84163e-05
2	0	0	1	0	11650.6	0.0675749	0.067148	-0.449956	7	-0.48277	12	-3.02136e-05
2	0	0	1	0	11751.7	0.104248	0.103789	-0.244951	7	-0.52379	12	-2.54232e-05
2	0	0	1	0	11856.5	0.261421	0.260943	-0.0649884	7	-0.539081	12	-1.69583e-05
2	1	0	1	0	11961.3	0.418592	0.41811	0.0574094	7	-0.539444	13	2.40034e-05
2	1	0	1	0	12066	0.575765	0.575304	0.374757	7	-0.519481	12	0.000215599
2	1	0	1	0	12170.8	0.732936	0.73243	0.483793	7	-0.471175	12	0.000354344
2	1	0	1	0	12275.6	0.890109	0.889549	0.412244	7	-0.423572	12	0.000366711
2	1	0	1	1	12376.7	0.958216	0.957711	0.145437	8	-0.389818	12	0.000139287
2	0	0	1	1	12481.5	0.801044	0.80054	-0.0326655	8	-0.38723	13	-2.615e-05
2	0	0	1	1	12586.2	0.643872	0.643418	-0.0910051	8	-0.393616	13	-5.85543e-05
2	0	0	1	1	12691	0.4867	0.486273	-0.150473	8	-0.406254	12	-7.31708e-05
2	0	0	1	1	12795.8	0.329528	0.329048	-0.21736	8	-0.425368	12	-7.15219e-05
2	0	0	1	1	12900.6	0.172356	0.171973	-0.340943	8	-0.454263	12	-5.86329e-05
2	0	0	1	1	13005.4	0.0151844	0.0147655	-0.50209	8	-0.498186	12	-7.41363e-06
2	0	0	1	1	13106.5	0.156639	0.156214	-0.16721	8	-0.529194	12	-2.61206e-05
2	0	0	1	1	13211.2	0.313811	0.313417	-0.026919	8	-0.53875	13	-8.43686e-06
2	1	0	1	1	13316	0.470983	0.470569	0.0996825	8	-0.535812	13	4.69075e-05
2	1	0	1	1	13420.8	0.628155	0.627682	0.450483	8	-0.506066	12	0.00028276
2	1	0	1	1	13525.6	0.785327	0.784861	0.460532	8	-0.456747	12	0.000361453
2	1	0	1	1	13630.4	0.942499	0.942019	0.373275	8	-0.412653	12	0.000351632
2	1	0	1	0	13731.4	0.905826	0.905388	0.0348752	9	-0.390256	13	3.15756e-05
2	0	0	1	0	13836.2	0.748654	0.748236	-0.0483025	9	-0.39219	13	-3.61416e-05
2	0	0	1	0	13941	0.591482	0.591025	-0.105441	9	-0.400302	13	-6.23183e-05
2	0	0	1	0	14045.8	0.43431	0.433893	-0.163122	9	-0.414335	12	-7.07773e-05
2	0	0	1	0	14150.6	0.277138	0.276772	-0.248915	9	-0.435269	12	-6.88927e-05
2	0	0	1	0	14255.4	0.119966	0.119633	-0.394283	9	-0.468746	12	-4.71694e-05
2	0	0	1	0	14356.4	0.0518578	0.0514572	-0.354899	9	-0.5137	12	-1.82621e-05
2	0	0	1	0	14461.2	0.20903	0.208628	-0.109537	9	-0.535173	12	-2.28525e-05
2	1	0	1	0	14566	0.366202	0.3658	0.00479422	9	-0.540215	14	1.75373e-06
2	1	0	1	0	14670.8	0.523374	0.523003	0.190602	9	-0.532962	12	9.96854e-05
2	1	0	1	0	14775.6	0.680546	0.68014	0.477814	9	-0.492916	12	0.00032498
2	1	0	1	0	14880.3	0.837718	0.837326	0.434169	9	-0.444104	12	0.000363541
2	1	0	1	0	14985.1	0.99489	0.994462	0.333599	9	-0.40368	12	0.000331751
2	0	0	1	1	15086.2	0.853435	0.85301	-0.012383	10	-0.393556	13	-1.05628e-05
2	0	0	1	1	15191	0.696263	0.695815	-0.0645327	10	-0.39764	13	-4.49029e-05
2	0	0	1	1	15295.8	0.539091	0.538644	-0.118761	10	-0.407257	12	-6.39699e-05
2	0	0	1	1	15400.6	0.381919	0.381472	-0.176365	10	-0.422663	12	-6.72783e-05
2	0	0	1	1	15505.3	0.224747	0.224359	-0.294796	10	-0.446457	12	-6.61402e-05
2	0	0	1	1	15610.1	0.067575	0.067164	-0.443568	10	-0.485268	12	-2.97918e-05
2	0	0	1	1	15711.2	0.104248	0.103845	-0.226078	10	-0.524806	12	-2.34771e-05
2	0	0	1	1	15816	0.26142	0.261007	-0.0648592	10	-0.539025	12	-1.69287e-05
2	1	0	1	1	15920.8	0.418592	0.418129	0.0310083	10	-0.540506	13	1.29655e-05
2	1	0	1	1	16025.5	0.575765	0.57532	0.33163	10	-0.525774	12	0.000190794
2	1	0	1	1	16130.3	0.732936	0.732476	0.478555	10	-0.479378	12	0.00035053
2	1	0	1	1	16235.1	0.890109	0.889636	0.404573	10	-0.432488	12	0.000359923
2	1	0	1	0	16336.2	1.04173	1.04128	0.301878	10	-0.396808	12	0.000314339
2	1	0	1	0	16441	1.19891	1.19838	0.211857	10	-0.370112	12	0.000253886
2	1	0	1	0	16545.8	1.35608	1.35556	0.131752	10	-0.352156	12	0.000178599
2	1	0	1	0	16650.5	1.51325	1.51278	0.0627021	10	-0.342094	12	9.48548e-05
2	1	0	1	0	16755.3	1.67042	1.66987	0.0234646	10	-0.338069	13	3.91828e-05
2	1	0	0	0	16839.1	1.79631	1.79576	0.0197345	10	-0.336315	13	3.54383e-05